{
    "resourceType": "Bundle",
    "id": "2-7-BundleProvideDocument",
    "meta": {
        "profile": [
            "http://fhir.ch/ig/ch-epr-fhir/StructureDefinition/ch-mhd-providedocumentbundle-comprehensive",
            "https://profiles.ihe.net/ITI/MHD/StructureDefinition/IHE.MHD.Comprehensive.ProvideBundle"
        ]
    },
    "type": "transaction",
    "entry": [
        {
            "fullUrl": "urn:uuid:68a928c0-df48-4743-a291-bfb0609bbddc",
            "resource": {
                "resourceType": "List",
                "text": {
                    "status": "extensions",
                    "div": "<div xmlns=\"http://www.w3.org/1999/xhtml\"> representation </div>"
                },
                "extension": [
                    {
                        "url": "https://profiles.ihe.net/ITI/MHD/StructureDefinition/ihe-designationType",
                        "valueCodeableConcept": {
                            "coding": [
                                {
                                    "system": "http://snomed.info/sct",
                                    "code": "71388002",
                                    "display": "Procedure (procedure)"
                                }
                            ]
                        }
                    },
                    {
                        "url": "https://profiles.ihe.net/ITI/MHD/StructureDefinition/ihe-sourceId",
                        "valueIdentifier": {
                            "system": "urn:ietf:rfc:3986",
                            "value": "urn:oid:1.3.6.1.4.1.12559.11.13.2.5"
                        }
                    },
                    {
                        "url": "http://fhir.ch/ig/ch-epr-fhir/StructureDefinition/ch-ext-author-authorrole",
                        "valueCoding": {
                            "system": "urn:oid:2.16.756.5.30.1.127.3.10.6",
                            "code": "HCP",
                            "display": "Healthcare professional"
                        }
                    }
                ],
                "code": {
                    "coding": [
                        {
                            "system": "https://profiles.ihe.net/ITI/MHD/CodeSystem/MHDlistTypes",
                            "code": "submissionset",
                            "display": "SubmissionSet as a FHIR List"
                        }
                    ]
                },
                "identifier": [
                    {
                        "use": "usual",
                        "system": "urn:ietf:rfc:3986",
                        "value": "urn:oid:1.3.6.1.4.1.12559.11.13.2.6.2949"
                    }
                ],
                "status": "current",
                "mode": "working",
                "subject": {
                    "reference": "http://example.org/Patient/FranzMusterNeedsAbsoluteUrl"
                },
                "date": "2020-06-29T12:01:30+00:00",
                "entry": [
                    {
                        "item": {
                            "reference": "urn:uuid:50383ae5-49e5-4dea-b0e6-660cb9e7b91f"
                        }
                    }
                ]
            },
            "request": {
                "method": "POST",
                "url": "List"
            }
        },
        {
            "fullUrl": "urn:uuid:50383ae5-49e5-4dea-b0e6-660cb9e7b91f",
            "resource": {
                "resourceType": "DocumentReference",
                "contained": [
                    {
                        "resourceType": "Patient",
                        "id": "1",
                        "identifier": [
                            {
                                "use": "usual",
                                "type": {
                                    "coding": [
                                        {
                                            "system": "http://terminology.hl7.org/CodeSystem/v2-0203",
                                            "code": "MR"
                                        }
                                    ]
                                },
                                "system": "urn:oid:2.16.756.888888.3.1",
                                "value": "8734"
                            }
                        ]
                    }
                ],
                "extension": [
                    {
                        "url": "http://fhir.ch/ig/ch-epr-fhir/StructureDefinition/ch-ext-deletionstatus",
                        "valueCoding": {
                            "system": "urn:oid:2.16.756.5.30.1.127.3.10.18",
                            "code": "urn:e-health-suisse:2019:deletionStatus:deletionNotRequested"
                        }
                    },
                    {
                        "url": "http://fhir.ch/ig/ch-epr-fhir/StructureDefinition/ch-ext-author-authorrole",
                        "valueCoding": {
                            "system": "urn:oid:2.16.756.5.30.1.127.3.10.6",
                            "code": "HCP",
                            "display": "Healthcare professional"
                        }
                    }
                ],
                "masterIdentifier": {
                    "system": "urn:ietf:rfc:3986",
                    "value": "urn:oid:1.3.6.1.4.1.12559.11.13.2.1.2951"
                },
                "status": "current",
                "type": {
                    "coding": [
                        {
                            "system": "http://snomed.info/sct",
                            "code": "721912009",
                            "display": "Medication summary document (record artifact)"
                        }
                    ]
                },
                "category": [
                    {
                        "coding": [
                            {
                                "system": "http://snomed.info/sct",
                                "code": "422735006",
                                "display": "Summary clinical document (record artifact)"
                            }
                        ]
                    }
                ],
                "subject": {
                    "reference": "http://example.org/Patient/FranzMusterNeedsAbsoluteUrl"
                },
                "date": "2020-06-29T11:58:00+00:00",
                "description": "2-7-MedicationCard",
                "securityLabel": [
                    {
                        "coding": [
                            {
                                "system": "http://snomed.info/sct",
                                "code": "17621005",
                                "display": "Normal (qualifier value)"
                            }
                        ]
                    }
                ],
                "content": [
                    {
                        "attachment": {
                            "contentType": "text/xml",
                            "language": "de-CH",
                            "url": "urn:uuid:d8d1fe44-07e9-4a84-985f-fde97d77d54b",
                            "creation": "2020-06-29T11:58:00+00:00",
                            "title": "Medicationlist"

                        },
                        "format": {
                            "system": "http://ihe.net/fhir/ihe.formatcode.fhir/CodeSystem/formatcode",
                            "code": "urn:ihe:pharm:pml:2013",
                            "display": "Pharmacy PML"
                        }
                    }
                ],
                "context": {
                    "facilityType": {
                        "coding": [
                            {
                                "system": "http://snomed.info/sct",
                                "code": "264358009",
                                "display": "General practice premises (environment)"
                            }
                        ]
                    },
                    "practiceSetting": {
                        "coding": [
                            {
                                "system": "http://snomed.info/sct",
                                "code": "394802001",
                                "display": "General medicine (qualifier value)"
                            }
                        ]
                    },
                    "sourcePatientInfo": {
                        "reference": "#1"
                    }
                }
            },
            "request": {
                "method": "POST",
                "url": "DocumentReference"
            }
        },
        {
            "fullUrl": "urn:uuid:d8d1fe44-07e9-4a84-985f-fde97d77d54b",
            "resource": {
                "resourceType": "Binary",
                "contentType": "text/xml",
                "data": "PENsaW5pY2FsRG9jdW1lbnQgeG1sbnM9InVybjpobDctb3JnOnYzIj4NCgk8dGl0bGU+SGVsbG88L3RpdGxlPg0KPC9DbGluaWNhbERvY3VtZW50PiA="
            },
            "request": {
                "method": "POST",
                "url": "Binary"
            }
        }
    ]
}
