{
  "resourceType": "Bundle",
  "type": "message",
  "id": "BundlePIXmFeed",
  "meta": {
    "profile": [
      "http://fhir.ch/ig/ch-epr-mhealth/StructureDefinition/ch-pixm-bundle"
    ]
  },
  "entry": [
    {
      "fullUrl": "http://example.com/fhir/MessageHeader/1",
      "resource": {
        "resourceType": "MessageHeader",
        "id": "1",
        "eventUri": "urn:ihe:iti:pmir:2019:patient-feed",
        "source": {
          "endpoint": "http://example.com/patientSource"
        },
        "focus": [
          {
            "reference": "Bundle/abc"
          }
        ],
        "destination": [
          {
            "endpoint": "http://example.com/patientEndpoint"
          }
        ]
      }
    },
    {
      "fullUrl": "http://example.com/fhir/Bundle/abc",
      "resource": {
        "resourceType": "Bundle",
        "id": "abc",
        "type": "history",
        "entry": [
          {
            "fullUrl": "http://example.com/fhir/Patient/PatientPIXmFeed",
            "resource": {
              "resourceType": "Patient",
              "id": "PatientPIXmFeed",
              "text": {
                "status": "generated",
                "div": "<div xmlns=\"http://www.w3.org/1999/xhtml\"><p><b>Generated Narrative</b></p><p><b>id</b>: PatientPIXmFeed</p><p><b>meta</b>: </p><p><b>identifier</b>: Medical record number = 8734</p><p><b>name</b>: Franz Muster , Muster </p><p><b>gender</b>: male</p><p><b>birthDate</b>: 1995-01-27</p></div>"
              },
              "contained": [
                {
                  "resourceType": "Organization",
                  "id": "org1",
                  "identifier": [
                    {
                      "system": "urn:oid:2.51.1.3",
                      "value": "7601000201041"
                    }
                  ],
                  "address" : [
                    {
                      "use" : "work",
                      "line" : [
                        "Doktorgasse",
                        "2"
                      ],
                      "city" : "Musterhausen",
                      "postalCode" : "8888",
                      "country" : "CH"
                    }
                  ]
                }
              ],
              "identifier": [
                {
                  "type": {
                    "coding": [
                      {
                        "system": "http://terminology.hl7.org/CodeSystem/v2-0203",
                        "code": "MR"
                      }
                    ]
                  },
                  "system": "urn:oid:2.16.756.888888.3.1",
                  "value": "8734"
                }
              ],
              "name": [
                {
                  "family": "Muster",
                  "given": [
                    "Franz"
                  ]
                },
                {
                  "family": "Muster",
                  "_family": {
                    "extension": [
                      {
                        "url": "http://hl7.org/fhir/StructureDefinition/iso21090-EN-qualifier",
                        "valueCode": "BR"
                      }
                    ]
                  }
                }
              ],
              "gender": "male",
              "birthDate": "1995-01-27",
              "managingOrganization": {
                "reference": "#org1"
              }
            },
            "request": {
              "method": "POST",
              "url": "Patient"
            },
            "response": {
              "status": "200"
            }
          }
        ]
      }
    }
  ]
}